{"resourceType":"Bundle","id":"483f7e20-eb6c-11ee-bce5-1d38c3d83aa0_healthelink-20240305-testcase3-MRN","type":"transaction","meta":{"lastUpdated":"03/05/94 13:08"},"timestamp":"2024-03-26T12:27:59.618Z","entry":[{"fullUrl":"albany-medical-center-hospital-amc","resource":{"resourceType":"Organization","id":"AMC","meta":{"lastUpdated":"03/05/94 13:08","profile":["http://shinny.org/StructureDefinition/shin-ny-organization"]},"identifier":[{"system":"AMC","value":"albany-medical-center-hospital-amc"}],"active":true,"type":[{"coding":[{"system":"http://terminology.hl7.org/CodeSystem/organization-type","code":"Hospital","display":"Hospital"}]}],"name":"Albany Medical Center","address":[{"text":"43 New Scotland Ave ","city":"Albany","state":"New York","postalCode":"12208"}]}},{"fullUrl":"consentForhealthelink-20240305-testcase3-MRN","resource":{"resourceType":"Consent","id":"consentForhealthelink-20240305-testcase3-MRN","meta":{"lastUpdated":"03/05/94 13:08","profile":["http://shinny.org/StructureDefinition/shin-ny-organization"]},"status":"active","scope":{"coding":[{"code":"treatment"}],"text":"treatment"},"category":[{"coding":[{"display":"Patient Consent","code":"59284-0","system":"http://loinc.org"}]}],"patient":{"reference":"Patient/healthelink-20240305-testcase3-MRN"},"dateTime":"03/05/94 13:08","organization":[{"reference":"Organization/AMC"}]}},{"fullUrl":"AMC-healthelink-20240305-testcase3-MRN","resource":{"resourceType":"Patient","id":"AMC-healthelink-20240305-testcase3-MRN","meta":{"lastUpdated":"03/05/94 13:08","profile":["http://shinny.org/StructureDefinition/shinny-patient"]},"language":"myv","extension":[{"extension":[{"url":"ombCategory","valueCoding":{"system":"urn:oid:2.16.840.1.113883.6.238","code":"1142-9","display":"Coquille"}}],"url":"http://hl7.org/fhir/us/core/StructureDefinition/us-core-race"},{"extension":[{"url":"ombCategory","valueCoding":{"system":"urn:oid:2.16.840.1.113883.6.238","code":"2137-8","display":"Spaniard"}}],"url":"http://hl7.org/fhir/us/core/StructureDefinition/us-core-ethnicity"},{"url":"http://hl7.org/fhir/us/core/StructureDefinition/us-core-birthsex","valueCode":"UNK"},{"url":"http://shinny.org/StructureDefinition/shinny-sexual-orientation","valueCodeableConcept":{"coding":[{"system":"http://snomed.info/sct","code":"20430005","display":"Heterosexual"}]}}],"identifier":[{"type":{"coding":[{"system":"http://terminology.hl7.org/CodeSystem/v2-0203","code":"MR"}],"text":"Medical Record Number"},"system":"AMC","value":"healthelink-20240305-testcase3-MRN","assigner":{"reference":"Organization/AMC"}},{"type":{"coding":[{"system":"http://terminology.hl7.org/CodeSystem/v2-0203","code":"MA"}]},"system":"http://www.medicaid.gov/","value":"QK65113X","assigner":{"reference":"Organization/2.16.840.1.113883.3.249"}},{"type":{"coding":[{"system":"http://terminology.hl7.org/CodeSystem/v2-0203","code":"PN"}]},"system":"http://www.acme.com/identifiers/patient","value":"healthelinkH0QF7VFUQO"}],"name":[{"text":"Summer Nathaniel Bautista","family":"Bautista","given":["Summer","Nathaniel"]}],"gender":"UNK","birthDate":"2004-06-20","address":[{"text":"519 Larsen Ports Apt. 379 Suite 11","line":["519 Larsen Ports Apt. 379","Suite 11"],"city":"North Tonawanda","state":"NY","postalCode":"14120"}],"communication":[{"language":{"coding":[{"code":"myv"}]},"preferred":true}]}},{"fullUrl":"healthelink19VCFAQISN","resource":{"resourceType":"Encounter","id":"healthelink19VCFAQISN","meta":{"lastUpdated":"03/05/94 13:08","profile":["http://shinny.org/StructureDefinition/shin-ny-encounter"]},"status":"entered-in-error","class":{"system":"http://terminology.hl7.org/CodeSystem/v3-ActCode","code":"ACUTE"},"type":[{"coding":[{"system":"http://snomed.info/sct","code":"32166003","display":"History taking, self-administered, questionnaire"}],"text":"History taking, self-administered, questionnaire"}],"subject":{"reference":"Patient/AMC-healthelink-20240305-testcase3-MRN"}}},{"fullUrl":"healthelinkGYNB8RC1AS","resource":{"resourceType":"Encounter","id":"healthelinkGYNB8RC1AS","meta":{"lastUpdated":"01/27/02 15:42","profile":["http://shinny.org/StructureDefinition/shin-ny-encounter"]},"status":"entered-in-error","class":{"system":"http://terminology.hl7.org/CodeSystem/v3-ActCode","code":"ACUTE"},"type":[{"coding":[{"system":"http://snomed.info/sct","code":"32166003","display":"History taking, self-administered, questionnaire"}],"text":"History taking, self-administered, questionnaire"}],"subject":{"reference":"Patient/AMC-healthelink-20240305-testcase3-MRN"}}},{"fullUrl":"observationResponseQuestion_28","resource":{"resourceType":"Observation","id":"observationResponseQuestion_28","meta":{"lastUpdated":"03/05/94 13:08","profile":["http://hl7.org/fhir/us/sdoh-clinicalcare/StructureDefinition/SDOHCC-ObservationScreeningResponse"]},"status":"unknown","category":[{"coding":[{"system":"http://terminology.hl7.org/CodeSystem/observation-category","code":"social-history","display":"Social History"}]},{"coding":[{"system":"http://terminology.hl7.org/CodeSystem/observation-category","code":"survey","display":"Survey"}]},{"coding":[{"system":"http://hl7.org/fhir/us/sdoh-clinicalcare/CodeSystem/SDOHCC-CodeSystemTemporaryCodes","code":"stress","display":"Stress"}]}],"code":{"coding":[{"system":"http://loinc.org","code":"93038-8","display":"Stress means a situation in which a person feels tense, restless, nervous, or anxious, or is unable to sleep at night because his or her mind is troubled all the time. Do you feel this kind of stress these days?"}]},"subject":{"reference":"Patient/healthelink-20240305-testcase3-MRN"},"effectiveDateTime":"03/05/94 13:08","issued":"03/05/94 13:08","valueCodeableConcept":{"coding":[{"system":"http://loinc.org","code":"LA13902-4","display":"Quite a bit"}]},"interpretation":[{"coding":[{"system":"http://terminology.hl7.org/CodeSystem/v3-ObservationInterpretation","code":"POS","display":"Positive"}]}]}},{"fullUrl":"observationResponseQuestion_29","resource":{"resourceType":"Observation","id":"observationResponseQuestion_29","meta":{"lastUpdated":"03/05/94 13:08","profile":["http://hl7.org/fhir/us/sdoh-clinicalcare/StructureDefinition/SDOHCC-ObservationScreeningResponse"]},"status":"unknown","category":[{"coding":[{"system":"http://terminology.hl7.org/CodeSystem/observation-category","code":"social-history","display":"Social History"}]},{"coding":[{"system":"http://terminology.hl7.org/CodeSystem/observation-category","code":"survey","display":"Survey"}]},{"coding":[{"system":"http://hl7.org/fhir/us/sdoh-clinicalcare/CodeSystem/SDOHCC-CodeSystemTemporaryCodes","code":"sdoh-category-unspecified","display":"SDOH Category Unspecified"}]}],"code":{"coding":[{"system":"http://loinc.org","code":"69858-9","display":"Because of a physical, mental, or emotional condition, do you have serious difficulty concentrating, remembering, or making decisions?"}]},"subject":{"reference":"Patient/healthelink-20240305-testcase3-MRN"},"effectiveDateTime":"03/05/94 13:08","issued":"03/05/94 13:08","valueCodeableConcept":{"coding":[{"system":"http://loinc.org","code":"LA33-6","display":"Yes"}]},"interpretation":[{"coding":[{"system":"http://terminology.hl7.org/CodeSystem/v3-ObservationInterpretation","code":"POS","display":"Positive"}]}]}},{"fullUrl":"observationResponseQuestion_30","resource":{"resourceType":"Observation","id":"observationResponseQuestion_30","meta":{"lastUpdated":"03/05/94 13:08","profile":["http://hl7.org/fhir/us/sdoh-clinicalcare/StructureDefinition/SDOHCC-ObservationScreeningResponse"]},"status":"unknown","category":[{"coding":[{"system":"http://terminology.hl7.org/CodeSystem/observation-category","code":"social-history","display":"Social History"}]},{"coding":[{"system":"http://terminology.hl7.org/CodeSystem/observation-category","code":"survey","display":"Survey"}]},{"coding":[{"system":"http://hl7.org/fhir/us/sdoh-clinicalcare/CodeSystem/SDOHCC-CodeSystemTemporaryCodes","code":"sdoh-category-unspecified","display":"SDOH Category Unspecified"}]}],"code":{"coding":[{"system":"http://loinc.org","code":"69861-3","display":"Because of a physical, mental, or emotional condition, do you have difficulty doing errands alone such as visiting a physician's office or shopping"}]},"subject":{"reference":"Patient/healthelink-20240305-testcase3-MRN"},"effectiveDateTime":"03/05/94 13:08","issued":"03/05/94 13:08","valueCodeableConcept":{"coding":[{"system":"http://loinc.org","code":"LA32-8","display":"No"}]},"interpretation":[{"coding":[{"system":"http://terminology.hl7.org/CodeSystem/v3-ObservationInterpretation","code":"POS","display":"Positive"}]}]}},{"fullUrl":"observationResponseQuestion_1","resource":{"resourceType":"Observation","id":"observationResponseQuestion_1","meta":{"lastUpdated":"01/27/02 15:42","profile":["http://hl7.org/fhir/us/sdoh-clinicalcare/StructureDefinition/SDOHCC-ObservationScreeningResponse"]},"status":"unknown","category":[{"coding":[{"system":"http://terminology.hl7.org/CodeSystem/observation-category","code":"social-history","display":"Social History"}]},{"coding":[{"system":"http://terminology.hl7.org/CodeSystem/observation-category","code":"survey","display":"Survey"}]},{"coding":[{"system":"http://hl7.org/fhir/us/sdoh-clinicalcare/CodeSystem/SDOHCC-CodeSystemTemporaryCodes","code":"sdoh-category-unspecified","display":"SDOH Category Unspecified"}]}],"code":{"coding":[{"system":"http://loinc.org","code":"71802-3","display":"What is your living situation today?"}]},"subject":{"reference":"Patient/healthelink-20240305-testcase3-MRN"},"effectiveDateTime":"01/27/02 15:42","issued":"01/27/02 15:42","valueCodeableConcept":{"coding":[{"system":"http://loinc.org","code":"LA31994-9","display":"I have a place to live today, but I am worried about losing it in the future"}]},"interpretation":[{"coding":[{"system":"http://terminology.hl7.org/CodeSystem/v3-ObservationInterpretation","code":"POS","display":"Positive"}]}]}},{"fullUrl":"observationResponseQuestion_2","resource":{"resourceType":"Observation","id":"observationResponseQuestion_2","meta":{"lastUpdated":"01/27/02 15:42","profile":["http://hl7.org/fhir/us/sdoh-clinicalcare/StructureDefinition/SDOHCC-ObservationScreeningResponse"]},"status":"unknown","category":[{"coding":[{"system":"http://terminology.hl7.org/CodeSystem/observation-category","code":"social-history","display":"Social History"}]},{"coding":[{"system":"http://terminology.hl7.org/CodeSystem/observation-category","code":"survey","display":"Survey"}]},{"coding":[{"system":"http://hl7.org/fhir/us/sdoh-clinicalcare/CodeSystem/SDOHCC-CodeSystemTemporaryCodes","code":"sdoh-category-unspecified","display":"SDOH Category Unspecified"}]}],"code":{"coding":[{"system":"http://loinc.org","code":"96778-6","display":"Think about the place you live. Do you have problems with any of the following?"}]},"subject":{"reference":"Patient/healthelink-20240305-testcase3-MRN"},"effectiveDateTime":"01/27/02 15:42","issued":"01/27/02 15:42","valueCodeableConcept":{"coding":[{"system":"http://loinc.org","code":"LA31997-2","display":"Lead paint or pipes"}]},"interpretation":[{"coding":[{"system":"http://terminology.hl7.org/CodeSystem/v3-ObservationInterpretation","code":"POS","display":"Positive"}]}]}},{"fullUrl":"observationResponseQuestion_3","resource":{"resourceType":"Observation","id":"observationResponseQuestion_3","meta":{"lastUpdated":"01/27/02 15:42","profile":["http://hl7.org/fhir/us/sdoh-clinicalcare/StructureDefinition/SDOHCC-ObservationScreeningResponse"]},"status":"unknown","category":[{"coding":[{"system":"http://terminology.hl7.org/CodeSystem/observation-category","code":"social-history","display":"Social History"}]},{"coding":[{"system":"http://terminology.hl7.org/CodeSystem/observation-category","code":"survey","display":"Survey"}]},{"coding":[{"system":"http://hl7.org/fhir/us/sdoh-clinicalcare/CodeSystem/SDOHCC-CodeSystemTemporaryCodes","code":"food-insecurity","display":"Food Insecurity"}]}],"code":{"coding":[{"system":"http://loinc.org","code":"88122-7","display":"Within the past 12 months, you worried that your food would run out before you got money to buy more."}]},"subject":{"reference":"Patient/healthelink-20240305-testcase3-MRN"},"effectiveDateTime":"01/27/02 15:42","issued":"01/27/02 15:42","valueCodeableConcept":{"coding":[{"system":"http://loinc.org","code":"LA6729-3","display":"Sometimes true"}]},"interpretation":[{"coding":[{"system":"http://terminology.hl7.org/CodeSystem/v3-ObservationInterpretation","code":"POS","display":"Positive"}]}]}},{"fullUrl":"observationResponseQuestion_4","resource":{"resourceType":"Observation","id":"observationResponseQuestion_4","meta":{"lastUpdated":"01/27/02 15:42","profile":["http://hl7.org/fhir/us/sdoh-clinicalcare/StructureDefinition/SDOHCC-ObservationScreeningResponse"]},"status":"unknown","category":[{"coding":[{"system":"http://terminology.hl7.org/CodeSystem/observation-category","code":"social-history","display":"Social History"}]},{"coding":[{"system":"http://terminology.hl7.org/CodeSystem/observation-category","code":"survey","display":"Survey"}]},{"coding":[{"system":"http://hl7.org/fhir/us/sdoh-clinicalcare/CodeSystem/SDOHCC-CodeSystemTemporaryCodes","code":"food-insecurity","display":"Food Insecurity"}]}],"code":{"coding":[{"system":"http://loinc.org","code":"88123-5","display":"Within the past 12 months, the food you bought just didn't last and you didn't have money to get more."}]},"subject":{"reference":"Patient/healthelink-20240305-testcase3-MRN"},"effectiveDateTime":"01/27/02 15:42","issued":"01/27/02 15:42","valueCodeableConcept":{"coding":[{"system":"http://loinc.org","code":"LA6729-3","display":"Sometimes true"}]},"interpretation":[{"coding":[{"system":"http://terminology.hl7.org/CodeSystem/v3-ObservationInterpretation","code":"POS","display":"Positive"}]}]}},{"fullUrl":"observationResponseQuestion_5","resource":{"resourceType":"Observation","id":"observationResponseQuestion_5","meta":{"lastUpdated":"01/27/02 15:42","profile":["http://hl7.org/fhir/us/sdoh-clinicalcare/StructureDefinition/SDOHCC-ObservationScreeningResponse"]},"status":"unknown","category":[{"coding":[{"system":"http://terminology.hl7.org/CodeSystem/observation-category","code":"social-history","display":"Social History"}]},{"coding":[{"system":"http://terminology.hl7.org/CodeSystem/observation-category","code":"survey","display":"Survey"}]},{"coding":[{"system":"http://hl7.org/fhir/us/sdoh-clinicalcare/CodeSystem/SDOHCC-CodeSystemTemporaryCodes","code":"transportation-insecurity","display":"Transportation Insecurity"}]}],"code":{"coding":[{"system":"http://loinc.org","code":"93030-5","display":"In the past 12 months, has lack of reliable transportation kept you from medical appointments, meetings, work or from getting things needed for daily living?"}]},"subject":{"reference":"Patient/healthelink-20240305-testcase3-MRN"},"effectiveDateTime":"01/27/02 15:42","issued":"01/27/02 15:42","valueCodeableConcept":{"coding":[{"system":"http://loinc.org","code":"LA33-6","display":"Yes"}]},"interpretation":[{"coding":[{"system":"http://terminology.hl7.org/CodeSystem/v3-ObservationInterpretation","code":"POS","display":"Positive"}]}]}},{"fullUrl":"observationResponseQuestion_6","resource":{"resourceType":"Observation","id":"observationResponseQuestion_6","meta":{"lastUpdated":"01/27/02 15:42","profile":["http://hl7.org/fhir/us/sdoh-clinicalcare/StructureDefinition/SDOHCC-ObservationScreeningResponse"]},"status":"unknown","category":[{"coding":[{"system":"http://terminology.hl7.org/CodeSystem/observation-category","code":"social-history","display":"Social History"}]},{"coding":[{"system":"http://terminology.hl7.org/CodeSystem/observation-category","code":"survey","display":"Survey"}]},{"coding":[{"system":"http://hl7.org/fhir/us/sdoh-clinicalcare/CodeSystem/SDOHCC-CodeSystemTemporaryCodes","code":"sdoh-category-unspecified","display":"SDOH Category Unspecified"}]}],"code":{"coding":[{"system":"http://loinc.org","code":"96779-4","display":"In the past 12 months has the electric, gas, oil, or water company threatened to shut off services in your home?"}]},"subject":{"reference":"Patient/healthelink-20240305-testcase3-MRN"},"effectiveDateTime":"01/27/02 15:42","issued":"01/27/02 15:42","valueCodeableConcept":{"coding":[{"system":"http://loinc.org","code":"LA32002-0","display":"Already shut off"}]},"interpretation":[{"coding":[{"system":"http://terminology.hl7.org/CodeSystem/v3-ObservationInterpretation","code":"POS","display":"Positive"}]}]}},{"fullUrl":"observationResponseQuestion_7","resource":{"resourceType":"Observation","id":"observationResponseQuestion_7","meta":{"lastUpdated":"01/27/02 15:42","profile":["http://hl7.org/fhir/us/sdoh-clinicalcare/StructureDefinition/SDOHCC-ObservationScreeningResponse"]},"status":"unknown","category":[{"coding":[{"system":"http://terminology.hl7.org/CodeSystem/observation-category","code":"social-history","display":"Social History"}]},{"coding":[{"system":"http://terminology.hl7.org/CodeSystem/observation-category","code":"survey","display":"Survey"}]},{"coding":[{"system":"http://hl7.org/fhir/us/sdoh-clinicalcare/CodeSystem/SDOHCC-CodeSystemTemporaryCodes","code":"sdoh-category-unspecified","display":"SDOH Category Unspecified"}]}],"code":{"coding":[{"system":"http://loinc.org","code":"95618-5","display":"How often does anyone, including family and friends, physically hurt you?"}]},"subject":{"reference":"Patient/healthelink-20240305-testcase3-MRN"},"effectiveDateTime":"01/27/02 15:42","issued":"01/27/02 15:42","valueCodeableConcept":{"coding":[{"system":"http://loinc.org","code":"LA10066-1","display":"Rarely"}]},"interpretation":[{"coding":[{"system":"http://terminology.hl7.org/CodeSystem/v3-ObservationInterpretation","code":"POS","display":"Positive"}]}]}},{"fullUrl":"observationResponseQuestion_8","resource":{"resourceType":"Observation","id":"observationResponseQuestion_8","meta":{"lastUpdated":"01/27/02 15:42","profile":["http://hl7.org/fhir/us/sdoh-clinicalcare/StructureDefinition/SDOHCC-ObservationScreeningResponse"]},"status":"unknown","category":[{"coding":[{"system":"http://terminology.hl7.org/CodeSystem/observation-category","code":"social-history","display":"Social History"}]},{"coding":[{"system":"http://terminology.hl7.org/CodeSystem/observation-category","code":"survey","display":"Survey"}]},{"coding":[{"system":"http://hl7.org/fhir/us/sdoh-clinicalcare/CodeSystem/SDOHCC-CodeSystemTemporaryCodes","code":"sdoh-category-unspecified","display":"SDOH Category Unspecified"}]}],"code":{"coding":[{"system":"http://loinc.org","code":"95617-7","display":"How often does anyone, including family and friends, insult or talk down to you?"}]},"subject":{"reference":"Patient/healthelink-20240305-testcase3-MRN"},"effectiveDateTime":"01/27/02 15:42","issued":"01/27/02 15:42","valueCodeableConcept":{"coding":[{"system":"http://loinc.org","code":"LA6270-8","display":"Never"}]},"interpretation":[{"coding":[{"system":"http://terminology.hl7.org/CodeSystem/v3-ObservationInterpretation","code":"POS","display":"Positive"}]}]}},{"fullUrl":"observationResponseQuestion_9","resource":{"resourceType":"Observation","id":"observationResponseQuestion_9","meta":{"lastUpdated":"01/27/02 15:42","profile":["http://hl7.org/fhir/us/sdoh-clinicalcare/StructureDefinition/SDOHCC-ObservationScreeningResponse"]},"status":"unknown","category":[{"coding":[{"system":"http://terminology.hl7.org/CodeSystem/observation-category","code":"social-history","display":"Social History"}]},{"coding":[{"system":"http://terminology.hl7.org/CodeSystem/observation-category","code":"survey","display":"Survey"}]},{"coding":[{"system":"http://hl7.org/fhir/us/sdoh-clinicalcare/CodeSystem/SDOHCC-CodeSystemTemporaryCodes","code":"sdoh-category-unspecified","display":"SDOH Category Unspecified"}]}],"code":{"coding":[{"system":"http://loinc.org","code":"95616-9","display":"How often does anyone, including family and friends, threaten you with harm?"}]},"subject":{"reference":"Patient/healthelink-20240305-testcase3-MRN"},"effectiveDateTime":"01/27/02 15:42","issued":"01/27/02 15:42","valueCodeableConcept":{"coding":[{"system":"http://loinc.org","code":"LA16644-9","display":"Fairly often"}]},"interpretation":[{"coding":[{"system":"http://terminology.hl7.org/CodeSystem/v3-ObservationInterpretation","code":"POS","display":"Positive"}]}]}},{"fullUrl":"observationResponseQuestion_10","resource":{"resourceType":"Observation","id":"observationResponseQuestion_10","meta":{"lastUpdated":"01/27/02 15:42","profile":["http://hl7.org/fhir/us/sdoh-clinicalcare/StructureDefinition/SDOHCC-ObservationScreeningResponse"]},"status":"unknown","category":[{"coding":[{"system":"http://terminology.hl7.org/CodeSystem/observation-category","code":"social-history","display":"Social History"}]},{"coding":[{"system":"http://terminology.hl7.org/CodeSystem/observation-category","code":"survey","display":"Survey"}]},{"coding":[{"system":"http://hl7.org/fhir/us/sdoh-clinicalcare/CodeSystem/SDOHCC-CodeSystemTemporaryCodes","code":"sdoh-category-unspecified","display":"SDOH Category Unspecified"}]}],"code":{"coding":[{"system":"http://loinc.org","code":"95615-1","display":"How often does anyone, including family and friends, scream or curse at you?"}]},"subject":{"reference":"Patient/healthelink-20240305-testcase3-MRN"},"effectiveDateTime":"01/27/02 15:42","issued":"01/27/02 15:42","valueCodeableConcept":{"coding":[{"system":"http://loinc.org","code":"LA10082-8","display":"Sometimes"}]},"interpretation":[{"coding":[{"system":"http://terminology.hl7.org/CodeSystem/v3-ObservationInterpretation","code":"POS","display":"Positive"}]}]}},{"fullUrl":"observationResponseQuestion_11","resource":{"resourceType":"Observation","id":"observationResponseQuestion_11","meta":{"lastUpdated":"01/27/02 15:42","profile":["http://hl7.org/fhir/us/sdoh-clinicalcare/StructureDefinition/SDOHCC-ObservationScreeningResponse"]},"status":"unknown","category":[{"coding":[{"system":"http://terminology.hl7.org/CodeSystem/observation-category","code":"social-history","display":"Social History"}]},{"coding":[{"system":"http://terminology.hl7.org/CodeSystem/observation-category","code":"survey","display":"Survey"}]},{"coding":[{"system":"http://hl7.org/fhir/us/sdoh-clinicalcare/CodeSystem/SDOHCC-CodeSystemTemporaryCodes","code":"sdoh-category-unspecified","display":"SDOH Category Unspecified"}]}],"code":{"coding":[{"system":"http://loinc.org","code":"95614-4","display":"Total Safety Score"}]},"subject":{"reference":"Patient/healthelink-20240305-testcase3-MRN"},"effectiveDateTime":"01/27/02 15:42","issued":"01/27/02 15:42","valueCodeableConcept":{"coding":[{"system":"http://unitsofmeasure.org","code":"{score}","display":"10"}]},"derivedFrom":[{"reference":"Observation/ObservationResponseQuestion_9"},{"reference":"Observation/ObservationResponseQuestion_8"},{"reference":"Observation/ObservationResponseQuestion_10"},{"reference":"Observation/ObservationResponseQuestion_7"}],"interpretation":[{"coding":[{"system":"http://terminology.hl7.org/CodeSystem/v3-ObservationInterpretation","code":"POS","display":"Positive"}]}]}},{"fullUrl":"observationResponseQuestion_12","resource":{"resourceType":"Observation","id":"observationResponseQuestion_12","meta":{"lastUpdated":"03/05/94 13:08","profile":["http://hl7.org/fhir/us/sdoh-clinicalcare/StructureDefinition/SDOHCC-ObservationScreeningResponse"]},"status":"unknown","category":[{"coding":[{"system":"http://terminology.hl7.org/CodeSystem/observation-category","code":"social-history","display":"Social History"}]},{"coding":[{"system":"http://terminology.hl7.org/CodeSystem/observation-category","code":"survey","display":"Survey"}]},{"coding":[{"system":"http://hl7.org/fhir/us/sdoh-clinicalcare/CodeSystem/SDOHCC-CodeSystemTemporaryCodes","code":"financial-insecurity","display":"Financial Insecurity"}]}],"code":{"coding":[{"system":"http://loinc.org","code":"76513-1","display":"How hard is it for you to pay for the very basics like food, housing, medical care, and heating? Would you say it is"}]},"subject":{"reference":"Patient/healthelink-20240305-testcase3-MRN"},"effectiveDateTime":"03/05/94 13:08","issued":"03/05/94 13:08","valueCodeableConcept":{"coding":[{"system":"http://loinc.org","code":"LA15832-1","display":"Very hard"}]},"interpretation":[{"coding":[{"system":"http://terminology.hl7.org/CodeSystem/v3-ObservationInterpretation","code":"POS","display":"Positive"}]}]}},{"fullUrl":"observationResponseQuestion_13","resource":{"resourceType":"Observation","id":"observationResponseQuestion_13","meta":{"lastUpdated":"03/05/94 13:08","profile":["http://hl7.org/fhir/us/sdoh-clinicalcare/StructureDefinition/SDOHCC-ObservationScreeningResponse"]},"status":"unknown","category":[{"coding":[{"system":"http://terminology.hl7.org/CodeSystem/observation-category","code":"social-history","display":"Social History"}]},{"coding":[{"system":"http://terminology.hl7.org/CodeSystem/observation-category","code":"survey","display":"Survey"}]},{"coding":[{"system":"http://hl7.org/fhir/us/sdoh-clinicalcare/CodeSystem/SDOHCC-CodeSystemTemporaryCodes","code":"employment-status","display":"Employment Status"}]}],"code":{"coding":[{"system":"http://loinc.org","code":"96780-2","display":"Do you want help finding or keeping work or a job?"}]},"subject":{"reference":"Patient/healthelink-20240305-testcase3-MRN"},"effectiveDateTime":"03/05/94 13:08","issued":"03/05/94 13:08","valueCodeableConcept":{"coding":[{"system":"http://loinc.org","code":"LA31983-2","display":"I do not need or want help"}]},"interpretation":[{"coding":[{"system":"http://terminology.hl7.org/CodeSystem/v3-ObservationInterpretation","code":"POS","display":"Positive"}]}]}},{"fullUrl":"observationResponseQuestion_14","resource":{"resourceType":"Observation","id":"observationResponseQuestion_14","meta":{"lastUpdated":"03/05/94 13:08","profile":["http://hl7.org/fhir/us/sdoh-clinicalcare/StructureDefinition/SDOHCC-ObservationScreeningResponse"]},"status":"unknown","category":[{"coding":[{"system":"http://terminology.hl7.org/CodeSystem/observation-category","code":"social-history","display":"Social History"}]},{"coding":[{"system":"http://terminology.hl7.org/CodeSystem/observation-category","code":"survey","display":"Survey"}]},{"coding":[{"system":"http://hl7.org/fhir/us/sdoh-clinicalcare/CodeSystem/SDOHCC-CodeSystemTemporaryCodes","code":"social-connection","display":"Social Connection"}]}],"code":{"coding":[{"system":"http://loinc.org","code":"96781-0","display":"If for any reason you need help with day-to-day activities such as bathing, preparing meals, shopping, managing finances, etc., do you get the help you need?"}]},"subject":{"reference":"Patient/healthelink-20240305-testcase3-MRN"},"effectiveDateTime":"03/05/94 13:08","issued":"03/05/94 13:08","valueCodeableConcept":{"coding":[{"system":"http://loinc.org","code":"LA31979-0","display":"I need a lot more help"}]},"interpretation":[{"coding":[{"system":"http://terminology.hl7.org/CodeSystem/v3-ObservationInterpretation","code":"POS","display":"Positive"}]}]}},{"fullUrl":"observationResponseQuestion_15","resource":{"resourceType":"Observation","id":"observationResponseQuestion_15","meta":{"lastUpdated":"03/05/94 13:08","profile":["http://hl7.org/fhir/us/sdoh-clinicalcare/StructureDefinition/SDOHCC-ObservationScreeningResponse"]},"status":"unknown","category":[{"coding":[{"system":"http://terminology.hl7.org/CodeSystem/observation-category","code":"social-history","display":"Social History"}]},{"coding":[{"system":"http://terminology.hl7.org/CodeSystem/observation-category","code":"survey","display":"Survey"}]},{"coding":[{"system":"http://hl7.org/fhir/us/sdoh-clinicalcare/CodeSystem/SDOHCC-CodeSystemTemporaryCodes","code":"social-connection","display":"Social Connection"}]}],"code":{"coding":[{"system":"http://loinc.org","code":"93159-2","display":"How often do you feel lonely or isolated from those around you?"}]},"subject":{"reference":"Patient/healthelink-20240305-testcase3-MRN"},"effectiveDateTime":"03/05/94 13:08","issued":"03/05/94 13:08","valueCodeableConcept":{"coding":[{"system":"http://loinc.org","code":"LA10044-8","display":"Often"}]},"interpretation":[{"coding":[{"system":"http://terminology.hl7.org/CodeSystem/v3-ObservationInterpretation","code":"POS","display":"Positive"}]}]}},{"fullUrl":"observationResponseQuestion_16","resource":{"resourceType":"Observation","id":"observationResponseQuestion_16","meta":{"lastUpdated":"03/05/94 13:08","profile":["http://hl7.org/fhir/us/sdoh-clinicalcare/StructureDefinition/SDOHCC-ObservationScreeningResponse"]},"status":"unknown","category":[{"coding":[{"system":"http://terminology.hl7.org/CodeSystem/observation-category","code":"social-history","display":"Social History"}]},{"coding":[{"system":"http://terminology.hl7.org/CodeSystem/observation-category","code":"survey","display":"Survey"}]},{"coding":[{"system":"http://hl7.org/fhir/us/sdoh-clinicalcare/CodeSystem/SDOHCC-CodeSystemTemporaryCodes","code":"sdoh-category-unspecified","display":"SDOH Category Unspecified"}]}],"code":{"coding":[{"system":"http://loinc.org","code":"97027-7","display":"Do you speak a language other than English at home?"}]},"subject":{"reference":"Patient/healthelink-20240305-testcase3-MRN"},"effectiveDateTime":"03/05/94 13:08","issued":"03/05/94 13:08","valueCodeableConcept":{"coding":[{"system":"http://loinc.org","code":"LA32-8","display":"No"}]},"interpretation":[{"coding":[{"system":"http://terminology.hl7.org/CodeSystem/v3-ObservationInterpretation","code":"POS","display":"Positive"}]}]}},{"fullUrl":"observationResponseQuestion_17","resource":{"resourceType":"Observation","id":"observationResponseQuestion_17","meta":{"lastUpdated":"03/05/94 13:08","profile":["http://hl7.org/fhir/us/sdoh-clinicalcare/StructureDefinition/SDOHCC-ObservationScreeningResponse"]},"status":"unknown","category":[{"coding":[{"system":"http://terminology.hl7.org/CodeSystem/observation-category","code":"social-history","display":"Social History"}]},{"coding":[{"system":"http://terminology.hl7.org/CodeSystem/observation-category","code":"survey","display":"Survey"}]},{"coding":[{"system":"http://hl7.org/fhir/us/sdoh-clinicalcare/CodeSystem/SDOHCC-CodeSystemTemporaryCodes","code":"sdoh-category-unspecified","display":"SDOH Category Unspecified"}]}],"code":{"coding":[{"system":"http://loinc.org","code":"96782-8","display":"Do you want help with school or training? For example, starting or completing job training or getting a high school diploma, GED or equivalent."}]},"subject":{"reference":"Patient/healthelink-20240305-testcase3-MRN"},"effectiveDateTime":"03/05/94 13:08","issued":"03/05/94 13:08","valueCodeableConcept":{"coding":[{"system":"http://loinc.org","code":"LA33-6","display":"Yes"}]},"interpretation":[{"coding":[{"system":"http://terminology.hl7.org/CodeSystem/v3-ObservationInterpretation","code":"POS","display":"Positive"}]}]}},{"fullUrl":"observationResponseQuestion_18","resource":{"resourceType":"Observation","id":"observationResponseQuestion_18","meta":{"lastUpdated":"03/05/94 13:08","profile":["http://hl7.org/fhir/us/sdoh-clinicalcare/StructureDefinition/SDOHCC-ObservationScreeningResponse"]},"status":"unknown","category":[{"coding":[{"system":"http://terminology.hl7.org/CodeSystem/observation-category","code":"social-history","display":"Social History"}]},{"coding":[{"system":"http://terminology.hl7.org/CodeSystem/observation-category","code":"survey","display":"Survey"}]},{"coding":[{"system":"http://hl7.org/fhir/us/sdoh-clinicalcare/CodeSystem/SDOHCC-CodeSystemTemporaryCodes","code":"sdoh-category-unspecified","display":"SDOH Category Unspecified"}]}],"code":{"coding":[{"system":"http://loinc.org","code":"89555-7","display":"In the last 30 days, other than the activities you did for work, on average, how many days per week did you engage in moderate exercise (like walking fast, running, jogging, dancing, swimming, biking, or other similar activities)"}]},"subject":{"reference":"Patient/healthelink-20240305-testcase3-MRN"},"effectiveDateTime":"03/05/94 13:08","issued":"03/05/94 13:08","valueCodeableConcept":{"coding":[{"system":"http://loinc.org","code":"LA6113-0","display":"2"}]},"interpretation":[{"coding":[{"system":"http://terminology.hl7.org/CodeSystem/v3-ObservationInterpretation","code":"POS","display":"Positive"}]}]}},{"fullUrl":"observationResponseQuestion_19","resource":{"resourceType":"Observation","id":"observationResponseQuestion_19","meta":{"lastUpdated":"03/05/94 13:08","profile":["http://hl7.org/fhir/us/sdoh-clinicalcare/StructureDefinition/SDOHCC-ObservationScreeningResponse"]},"status":"unknown","category":[{"coding":[{"system":"http://terminology.hl7.org/CodeSystem/observation-category","code":"social-history","display":"Social History"}]},{"coding":[{"system":"http://terminology.hl7.org/CodeSystem/observation-category","code":"survey","display":"Survey"}]},{"coding":[{"system":"http://hl7.org/fhir/us/sdoh-clinicalcare/CodeSystem/SDOHCC-CodeSystemTemporaryCodes","code":"sdoh-category-unspecified","display":"SDOH Category Unspecified"}]}],"code":{"coding":[{"system":"http://loinc.org","code":"68516-4","display":"On average, how many minutes did you usually spend exercising at this level on one of those days?"}]},"subject":{"reference":"Patient/healthelink-20240305-testcase3-MRN"},"effectiveDateTime":"03/05/94 13:08","issued":"03/05/94 13:08","valueCodeableConcept":{"coding":[{"system":"http://loinc.org","code":"LA28853-2","display":"60"}]},"interpretation":[{"coding":[{"system":"http://terminology.hl7.org/CodeSystem/v3-ObservationInterpretation","code":"POS","display":"Positive"}]}]}},{"fullUrl":"observationResponseQuestion_20","resource":{"resourceType":"Observation","id":"observationResponseQuestion_20","meta":{"lastUpdated":"03/05/94 13:08","profile":["http://hl7.org/fhir/us/sdoh-clinicalcare/StructureDefinition/SDOHCC-ObservationScreeningResponse"]},"status":"unknown","category":[{"coding":[{"system":"http://terminology.hl7.org/CodeSystem/observation-category","code":"social-history","display":"Social History"}]},{"coding":[{"system":"http://terminology.hl7.org/CodeSystem/observation-category","code":"survey","display":"Survey"}]},{"coding":[{"system":"http://hl7.org/fhir/us/sdoh-clinicalcare/CodeSystem/SDOHCC-CodeSystemTemporaryCodes","code":"sdoh-category-unspecified","display":"SDOH Category Unspecified"}]}],"subject":{"reference":"Patient/healthelink-20240305-testcase3-MRN"},"effectiveDateTime":"03/05/94 13:08","issued":"03/05/94 13:08","valueCodeableConcept":{"coding":[{"system":"http://unitsofmeasure.org","code":"min/wk","display":"120"}]},"derivedFrom":[{"reference":"Observation/ObservationResponseQuestion_18"},{"reference":"Observation/ObservationResponseQuestion_19"}],"interpretation":[{"coding":[{"system":"http://terminology.hl7.org/CodeSystem/v3-ObservationInterpretation","code":"POS","display":"Positive"}]}]}},{"fullUrl":"observationResponseQuestion_21","resource":{"resourceType":"Observation","id":"observationResponseQuestion_21","meta":{"lastUpdated":"03/05/94 13:08","profile":["http://hl7.org/fhir/us/sdoh-clinicalcare/StructureDefinition/SDOHCC-ObservationScreeningResponse"]},"status":"unknown","category":[{"coding":[{"system":"http://terminology.hl7.org/CodeSystem/observation-category","code":"social-history","display":"Social History"}]},{"coding":[{"system":"http://terminology.hl7.org/CodeSystem/observation-category","code":"survey","display":"Survey"}]},{"coding":[{"system":"http://hl7.org/fhir/us/sdoh-clinicalcare/CodeSystem/SDOHCC-CodeSystemTemporaryCodes","code":"sdoh-category-unspecified","display":"SDOH Category Unspecified"}]}],"code":{"coding":[{"system":"http://loinc.org","code":"68517-2","display":"How many times in the past 12 months have you had 5 or more drinks in a day (males) or 4 or more drinks in a day (females)?"}]},"subject":{"reference":"Patient/healthelink-20240305-testcase3-MRN"},"effectiveDateTime":"03/05/94 13:08","issued":"03/05/94 13:08","valueCodeableConcept":{"coding":[{"system":"http://loinc.org","code":"LA6270-8","display":"Never"}]},"interpretation":[{"coding":[{"system":"http://terminology.hl7.org/CodeSystem/v3-ObservationInterpretation","code":"POS","display":"Positive"}]}]}},{"fullUrl":"observationResponseQuestion_22","resource":{"resourceType":"Observation","id":"observationResponseQuestion_22","meta":{"lastUpdated":"03/05/94 13:08","profile":["http://hl7.org/fhir/us/sdoh-clinicalcare/StructureDefinition/SDOHCC-ObservationScreeningResponse"]},"status":"unknown","category":[{"coding":[{"system":"http://terminology.hl7.org/CodeSystem/observation-category","code":"social-history","display":"Social History"}]},{"coding":[{"system":"http://terminology.hl7.org/CodeSystem/observation-category","code":"survey","display":"Survey"}]},{"coding":[{"system":"http://hl7.org/fhir/us/sdoh-clinicalcare/CodeSystem/SDOHCC-CodeSystemTemporaryCodes","code":"sdoh-category-unspecified","display":"SDOH Category Unspecified"}]}],"code":{"coding":[{"system":"http://loinc.org","code":"96842-0","display":"How many times in the past 12 months have you used tobacco products (like cigarettes, cigars, snuff, chew, electronic cigarettes)?"}]},"subject":{"reference":"Patient/healthelink-20240305-testcase3-MRN"},"effectiveDateTime":"03/05/94 13:08","issued":"03/05/94 13:08","valueCodeableConcept":{"coding":[{"system":"http://loinc.org","code":"LA18891-4","display":"Weekly"}]},"interpretation":[{"coding":[{"system":"http://terminology.hl7.org/CodeSystem/v3-ObservationInterpretation","code":"POS","display":"Positive"}]}]}},{"fullUrl":"observationResponseQuestion_23","resource":{"resourceType":"Observation","id":"observationResponseQuestion_23","meta":{"lastUpdated":"03/05/94 13:08","profile":["http://hl7.org/fhir/us/sdoh-clinicalcare/StructureDefinition/SDOHCC-ObservationScreeningResponse"]},"status":"unknown","category":[{"coding":[{"system":"http://terminology.hl7.org/CodeSystem/observation-category","code":"social-history","display":"Social History"}]},{"coding":[{"system":"http://terminology.hl7.org/CodeSystem/observation-category","code":"survey","display":"Survey"}]},{"coding":[{"system":"http://hl7.org/fhir/us/sdoh-clinicalcare/CodeSystem/SDOHCC-CodeSystemTemporaryCodes","code":"sdoh-category-unspecified","display":"SDOH Category Unspecified"}]}],"code":{"coding":[{"system":"http://loinc.org","code":"95530-2","display":"How many times in the past year have you used prescription drugs for non-medical reasons?"}]},"subject":{"reference":"Patient/healthelink-20240305-testcase3-MRN"},"effectiveDateTime":"03/05/94 13:08","issued":"03/05/94 13:08","valueCodeableConcept":{"coding":[{"system":"http://loinc.org","code":"LA26460-8","display":"Once or Twice"}]},"interpretation":[{"coding":[{"system":"http://terminology.hl7.org/CodeSystem/v3-ObservationInterpretation","code":"POS","display":"Positive"}]}]}},{"fullUrl":"observationResponseQuestion_24","resource":{"resourceType":"Observation","id":"observationResponseQuestion_24","meta":{"lastUpdated":"03/05/94 13:08","profile":["http://hl7.org/fhir/us/sdoh-clinicalcare/StructureDefinition/SDOHCC-ObservationScreeningResponse"]},"status":"unknown","category":[{"coding":[{"system":"http://terminology.hl7.org/CodeSystem/observation-category","code":"social-history","display":"Social History"}]},{"coding":[{"system":"http://terminology.hl7.org/CodeSystem/observation-category","code":"survey","display":"Survey"}]},{"coding":[{"system":"http://hl7.org/fhir/us/sdoh-clinicalcare/CodeSystem/SDOHCC-CodeSystemTemporaryCodes","code":"sdoh-category-unspecified","display":"SDOH Category Unspecified"}]}],"code":{"coding":[{"system":"http://loinc.org","code":"68524-8","display":"How many times in the past year have you used illegal drugs?"}]},"subject":{"reference":"Patient/healthelink-20240305-testcase3-MRN"},"effectiveDateTime":"03/05/94 13:08","issued":"03/05/94 13:08","valueCodeableConcept":{"coding":[{"system":"http://loinc.org","code":"LA6270-8","display":"Never"}]},"interpretation":[{"coding":[{"system":"http://terminology.hl7.org/CodeSystem/v3-ObservationInterpretation","code":"POS","display":"Positive"}]}]}},{"fullUrl":"observationResponseQuestion_25","resource":{"resourceType":"Observation","id":"observationResponseQuestion_25","meta":{"lastUpdated":"03/05/94 13:08","profile":["http://hl7.org/fhir/us/sdoh-clinicalcare/StructureDefinition/SDOHCC-ObservationScreeningResponse"]},"status":"unknown","category":[{"coding":[{"system":"http://terminology.hl7.org/CodeSystem/observation-category","code":"social-history","display":"Social History"}]},{"coding":[{"system":"http://terminology.hl7.org/CodeSystem/observation-category","code":"survey","display":"Survey"}]},{"coding":[{"system":"http://hl7.org/fhir/us/sdoh-clinicalcare/CodeSystem/SDOHCC-CodeSystemTemporaryCodes","code":"sdoh-category-unspecified","display":"SDOH Category Unspecified"}]}],"code":{"coding":[{"system":"http://loinc.org","code":"44250-9","display":"Little interest or pleasure in doing things?"}]},"subject":{"reference":"Patient/healthelink-20240305-testcase3-MRN"},"effectiveDateTime":"03/05/94 13:08","issued":"03/05/94 13:08","valueCodeableConcept":{"coding":[{"system":"http://loinc.org","code":"LA6571-9","display":"Nearly every day"}]},"interpretation":[{"coding":[{"system":"http://terminology.hl7.org/CodeSystem/v3-ObservationInterpretation","code":"POS","display":"Positive"}]}]}},{"fullUrl":"observationResponseQuestion_26","resource":{"resourceType":"Observation","id":"observationResponseQuestion_26","meta":{"lastUpdated":"03/05/94 13:08","profile":["http://hl7.org/fhir/us/sdoh-clinicalcare/StructureDefinition/SDOHCC-ObservationScreeningResponse"]},"status":"unknown","category":[{"coding":[{"system":"http://terminology.hl7.org/CodeSystem/observation-category","code":"social-history","display":"Social History"}]},{"coding":[{"system":"http://terminology.hl7.org/CodeSystem/observation-category","code":"survey","display":"Survey"}]},{"coding":[{"system":"http://hl7.org/fhir/us/sdoh-clinicalcare/CodeSystem/SDOHCC-CodeSystemTemporaryCodes","code":"sdoh-category-unspecified","display":"SDOH Category Unspecified"}]}],"code":{"coding":[{"system":"http://loinc.org","code":"44255-8","display":"Feeling down, depressed, or hopeless?"}]},"subject":{"reference":"Patient/healthelink-20240305-testcase3-MRN"},"effectiveDateTime":"03/05/94 13:08","issued":"03/05/94 13:08","valueCodeableConcept":{"coding":[{"system":"http://loinc.org","code":"LA6569-3","display":"Several days"}]},"interpretation":[{"coding":[{"system":"http://terminology.hl7.org/CodeSystem/v3-ObservationInterpretation","code":"POS","display":"Positive"}]}]}},{"fullUrl":"observationResponseQuestion_27","resource":{"resourceType":"Observation","id":"observationResponseQuestion_27","meta":{"lastUpdated":"03/05/94 13:08","profile":["http://hl7.org/fhir/us/sdoh-clinicalcare/StructureDefinition/SDOHCC-ObservationScreeningResponse"]},"status":"unknown","category":[{"coding":[{"system":"http://terminology.hl7.org/CodeSystem/observation-category","code":"social-history","display":"Social History"}]},{"coding":[{"system":"http://terminology.hl7.org/CodeSystem/observation-category","code":"survey","display":"Survey"}]},{"coding":[{"system":"http://hl7.org/fhir/us/sdoh-clinicalcare/CodeSystem/SDOHCC-CodeSystemTemporaryCodes","code":"sdoh-category-unspecified","display":"SDOH Category Unspecified"}]}],"subject":{"reference":"Patient/healthelink-20240305-testcase3-MRN"},"effectiveDateTime":"03/05/94 13:08","issued":"03/05/94 13:08","valueCodeableConcept":{"coding":[{"system":"http://unitsofmeasure.org","code":"{score}","display":"4"}]},"derivedFrom":[{"reference":"Observation/ObservationResponseQuestion_25"},{"reference":"Observation/ObservationResponseQuestion_26"}],"interpretation":[{"coding":[{"system":"http://terminology.hl7.org/CodeSystem/v3-ObservationInterpretation","code":"POS","display":"Positive"}]}]}}]}